#      T [K]      F [kJ/mol]    S [J/K/mol]  C_v [J/K/mol]     E [kJ/mol]
       0.000     203.1414019      0.0000000      0.0000000    203.1414019
      10.000     203.1351889      2.1227586      5.3378800    203.1564165
      20.000     203.0689626     13.3906553     38.1193807    203.3367757
      30.000     202.8019525     44.2033440    132.0791603    204.1280528
      40.000     202.0923729    102.3818969    287.5681548    206.1876487
      50.000     200.6689174    186.0109322    470.3689351    209.9694641
      60.000     198.3114238    287.8670229    650.2421403    215.5834452
      70.000     194.8757916    400.5218228    811.8717084    222.9123192
      80.000     190.2842986    518.2459592    950.5972804    231.7439753
      90.000     184.5071259    637.1416660   1067.0674623    241.8498758
     100.000     177.5458932    754.7416581   1163.9694959    253.0200590
     110.000     169.4215958    869.5720854   1244.4408242    265.0745252
     120.000     160.1664646    980.8121511   1311.4115889    277.8639227
     130.000     149.8186967   1088.0574674   1367.3904207    291.2661675
     140.000     138.4191302   1191.1634448   1414.4402999    305.1820124
     150.000     126.0091892   1290.1440376   1454.2255213    319.5307949
     160.000     112.6296470   1385.1070549   1488.0777115    334.2467758
     170.000      98.3199075   1476.2131306   1517.0600098    349.2761397
     180.000      83.1176166   1563.6498780   1542.0223408    364.5745947
     190.000      67.0584795   1647.6157596   1563.6464952    380.1054739
     200.000      50.1762057   1728.3101728   1582.4819184    395.8382403
     210.000      32.5025320   1805.9275110   1598.9737484    411.7473094
     220.000      14.0672913   1880.6537640   1613.4846521    427.8111194
     230.000      -5.1014935   1952.6647357   1626.3118114    444.0113957
     240.000     -24.9775032   2022.1252809   1637.7001511    460.3325642
     250.000     -45.5360115   2089.1891783   1647.8526735    476.7612830
     260.000     -66.7537756   2153.9993880   1656.9385635    493.2860653
     270.000     -88.6089302   2216.6885334   1665.0995759    509.8969739
     280.000    -111.0808867   2277.3795019   1672.4550944    526.5853738
     290.000    -134.1502399   2336.1861005   1679.1061586    543.3437292
     300.000    -157.7986797   2393.2137209   1685.1386877    560.1654366
     310.000    -182.0089106   2448.5599923   1690.6260739    577.0446870
     320.000    -206.7645774   2502.3154036   1695.6312804    593.9763518
     330.000    -232.0501963   2554.5638885   1700.2085465    610.9558870
     340.000    -257.8510924   2605.3833697   1704.4047808    627.9792533
     350.000    -284.1533422   2654.8462601   1708.2607051    645.0428488
     360.000    -310.9437207   2703.0199235   1711.8117976    662.1434518
     370.000    -338.2096529   2749.9670955   1715.0890746    679.2781724
     380.000    -365.9391697   2795.7462666   1718.1197408    696.4444116
     390.000    -394.1208673   2840.4120322   1720.9277329    713.6398253
     400.000    -422.7438694   2884.0154103   1723.5341755    730.8622947
     410.000    -451.7977936   2926.6041296   1725.9577655    748.1098996
     420.000    -481.2727191   2968.2228932   1728.2150964    765.3808960
     430.000    -511.1591583   3008.9136162   1730.3209343    782.6736967
     440.000    -541.4480294   3048.7156436   1732.2884524    799.9868538
     450.000    -572.1306323   3087.6659475   1734.1294315    817.3190441
     460.000    -603.1986254   3125.7993073   1735.8544318    834.6690559
     470.000    -634.6440047   3163.1484735   1737.4729407    852.0357778
     480.000    -666.4590840   3199.7443174   1738.9935002    869.4181883
     490.000    -698.6364772   3235.6159681   1740.4238174    886.8153471
     500.000    -731.1690813   3270.7909369   1741.7708595    904.2263872
     510.000    -764.0500606   3305.2952321   1743.0409376    921.6505078
     520.000    -797.2728325   3339.1534636   1744.2397786    939.0869685
     530.000    -830.8310541   3372.3889386   1745.3725888    956.5350833
     540.000    -864.7186092   3405.0237505   1746.4441098    973.9942161
     550.000    -898.9295969   3437.0788593   1747.4586665    991.4637757
     560.000    -933.4583205   3468.5741664   1748.4202106   1008.9432127
     570.000    -968.2992774   3499.5285836   1749.3323582   1026.4320153
     580.000   -1003.4471492   3529.9600958   1750.1984237   1043.9297063
     590.000   -1038.8967934   3559.8858199   1751.0214486   1061.4358403
     600.000   -1074.6432341   3589.3220588   1751.8042288   1078.9500011
     610.000   -1110.6816548   3618.2843511   1752.5493374   1096.4717994
     620.000   -1147.0073908   3646.7875178   1753.2591459   1114.0008702
     630.000   -1183.6159220   3674.8457046   1753.9358425   1131.5368719
     640.000   -1220.5028667   3702.4724222   1754.5814489   1149.0794835
     650.000   -1257.6639753   3729.6805828   1755.1978356   1166.6284035
     660.000   -1295.0951244   3756.4825348   1755.7867345   1184.1833486
     670.000   -1332.7923114   3782.8900946   1756.3497518   1201.7440519
     680.000   -1370.7516494   3808.9145761   1756.8883781   1219.3102623
     690.000   -1408.9693622   3834.5668189   1757.4039986   1236.8817428
     700.000   -1447.4417797   3859.8572137   1757.8979018   1254.4582699
     710.000   -1486.1653336   3884.7957269   1758.3712875   1272.0396325
     720.000   -1525.1365532   3909.3919225   1758.8252739   1289.6256310
     730.000   -1564.3520616   3933.6549841   1759.2609043   1307.2160768
     740.000   -1603.8085719   3957.5937339   1759.6791527   1324.8107912
     750.000   -1643.5028836   3981.2166513   1760.0809299   1342.4096049
     760.000   -1683.4318794   4004.5318909   1760.4670877   1360.0123577
     770.000   -1723.5925220   4027.5472977   1760.8384236   1377.6188973
     780.000   -1763.9818511   4050.2704235   1761.1956851   1395.2290793
     790.000   -1804.5969804   4072.7085403   1761.5395731   1412.8427664
     800.000   -1845.4350952   4094.8686545   1761.8707457   1430.4598283
     810.000   -1886.4934494   4116.7575190   1762.1898209   1448.0801410
     820.000   -1927.7693632   4138.3816458   1762.4973798   1465.7035864
     830.000   -1969.2602208   4159.7473167   1762.7939690   1483.3300520
     840.000   -2010.9634682   4180.8605942   1763.0801031   1500.9594309
     850.000   -2052.8766109   4201.7273315   1763.3562669   1518.5916209
     860.000   -2094.9972119   4222.3531819   1763.6229177   1536.2265245
     870.000   -2137.3228898   4242.7436078   1763.8804867   1553.8640490
     880.000   -2179.8513169   4262.9038890   1764.1293809   1571.5041054
     890.000   -2222.5802175   4282.8391308   1764.3699851   1589.1466089
     900.000   -2265.5073659   4302.5542717   1764.6026628   1606.7914786
     910.000   -2308.6305852   4322.0540903   1764.8277578   1624.4386369
     920.000   -2351.9477454   4341.3432120   1765.0455957   1642.0880096
     930.000   -2395.4567621   4360.4261159   1765.2564845   1659.7395257
     940.000   -2439.1555948   4379.3071404   1765.4607165   1677.3931171
     950.000   -2483.0422460   4397.9904892   1765.6585684   1695.0487187
     960.000   -2527.1147593   4416.4802368   1765.8503028   1712.7062681
     970.000   -2571.3712186   4434.7803338   1766.0361692   1730.3657052
     980.000   -2615.8097466   4452.8946115   1766.2164042   1748.0269727
     990.000   -2660.4285038   4470.8267870   1766.3912327   1765.6900153
    1000.000   -2705.2256873   4488.5804674   1766.5608686   1783.3547801
    1010.000   -2750.1995298   4506.1591543   1766.7255153   1801.0212161
    1020.000   -2795.3482985   4523.5662479   1766.8853662   1818.6892744
    1030.000   -2840.6702938   4540.8050503   1767.0406057   1836.3589080
    1040.000   -2886.1638492   4557.8787701   1767.1914091   1854.0300717
    1050.000   -2931.8273294   4574.7905251   1767.3379438   1871.7027220
    1060.000   -2977.6591299   4591.5433460   1767.4803692   1889.3768169
    1070.000   -3023.6576763   4608.1401799   1767.6188373   1907.0523162
    1080.000   -3069.8214231   4624.5838926   1767.7534932   1924.7291809
    1090.000   -3116.1488531   4640.8772723   1767.8844755   1942.4073738
    1100.000   -3162.6384765   4657.0230320   1768.0119164   1960.0868586
    1110.000   -3209.2888305   4673.0238119   1768.1359424   1977.7676007
    1120.000   -3256.0984781   4688.8821826   1768.2566742   1995.4495665
    1130.000   -3303.0660078   4704.6006472   1768.3742274   2013.1327236
    1140.000   -3350.1900328   4720.1816435   1768.4887124   2030.8170408
    1150.000   -3397.4691903   4735.6275464   1768.6002351   2048.5024880
    1160.000   -3444.9021411   4750.9406699   1768.7088967   2066.1890360
    1170.000   -3492.4875687   4766.1232695   1768.8147940   2083.8766567
    1180.000   -3540.2241788   4781.1775438   1768.9180201   2101.5653230
    1190.000   -3588.1106989   4796.1056365   1769.0186639   2119.2550085
    1200.000   -3636.1458779   4810.9096382   1769.1168107   2136.9456879
    1210.000   -3684.3284849   4825.5915880   1769.2125425   2154.6373367
    1220.000   -3732.6573094   4840.1534757   1769.3059377   2172.3299310
    1230.000   -3781.1311607   4854.5972427   1769.3970717   2190.0234479
    1240.000   -3829.7488669   4868.9247839   1769.4860169   2207.7178651
    1250.000   -3878.5092751   4883.1379490   1769.5728427   2225.4131612
    1260.000   -3927.4112506   4897.2385442   1769.6576158   2243.1093151
    1270.000   -3976.4536766   4911.2283334   1769.7404006   2260.8063068
    1280.000   -4025.6354537   4925.1090394   1769.8212585   2278.5041167
    1290.000   -4074.9554994   4938.8823451   1769.9002489   2296.2027258
    1300.000   -4124.4127481   4952.5498952   1769.9774288   2313.9021157
    1310.000   -4174.0061502   4966.1132967   1770.0528531   2331.6022685
    1320.000   -4223.7346721   4979.5741205   1770.1265746   2349.3031670
    1330.000   -4273.5972958   4992.9339024   1770.1986441   2367.0047945
    1340.000   -4323.5930183   5006.1941440   1770.2691106   2384.7071346
    1350.000   -4373.7208517   5019.3563135   1770.3380212   2402.4101715
    1360.000   -4423.9798225   5032.4218474   1770.4054214   2420.1138900
    1370.000   -4474.3689713   5045.3921506   1770.4713550   2437.8182751
    1380.000   -4524.8873526   5058.2685978   1770.5358642   2455.5233123
    1390.000   -4575.5340348   5071.0525342   1770.5989897   2473.2289877
    1400.000   -4626.3080994   5083.7452764   1770.6607708   2490.9352876
    1410.000   -4677.2086407   5096.3481131   1770.7212453   2508.6421988
    1420.000   -4728.2347661   5108.8623060   1770.7804498   2526.3497083
    1430.000   -4779.3855955   5121.2890903   1770.8384197   2544.0578037
    1440.000   -4830.6602606   5133.6296759   1770.8951889   2561.7664727
    1450.000   -4882.0579056   5145.8852477   1770.9507904   2579.4757036
    1460.000   -4933.5776861   5158.0569663   1771.0052560   2597.1854847
    1470.000   -4985.2187692   5170.1459688   1771.0586164   2614.8958050
    1480.000   -5036.9803334   5182.1533695   1771.1109013   2632.6066535
    1490.000   -5088.8615682   5194.0802602   1771.1621393   2650.3180195
    1500.000   -5140.8616738   5205.9277111   1771.2123583   2668.0298929
    1510.000   -5192.9798612   5217.6967712   1771.2615850   2685.7422634
    1520.000   -5245.2153514   5229.3884689   1771.3098454   2703.4551213
    1530.000   -5297.5673760   5241.0038125   1771.3571646   2721.1684572
    1540.000   -5350.0351764   5252.5437909   1771.4035670   2738.8822616
    1550.000   -5402.6180039   5264.0093738   1771.4490760   2756.5965255
    1560.000   -5455.3151191   5275.4015124   1771.4937144   2774.3112402
    1570.000   -5508.1257924   5286.7211397   1771.5375043   2792.0263970
    1580.000   -5561.0493032   5297.9691714   1771.5804670   2809.7419875
    1590.000   -5614.0849402   5309.1465055   1771.6226233   2827.4580036
    1600.000   -5667.2320006   5320.2540237   1771.6639931   2845.1744374
    1610.000   -5720.4897908   5331.2925911   1771.7045959   2862.8912809
    1620.000   -5773.8576255   5342.2630569   1771.7444506   2880.6085268
    1630.000   -5827.3348277   5353.1662548   1771.7835753   2898.3261675
    1640.000   -5880.9207291   5364.0030030   1771.8219879   2916.0441959
    1650.000   -5934.6146690   5374.7741054   1771.8597055   2933.7626050
    1660.000   -5988.4159950   5385.4803510   1771.8967447   2951.4813878
    1670.000   -6042.3240624   5396.1225150   1771.9331217   2969.2005376
    1680.000   -6096.3382342   5406.7013585   1771.9688522   2986.9200480
    1690.000   -6150.4578810   5417.2176293   1772.0039513   3004.6399126
    1700.000   -6204.6823807   5427.6720622   1772.0384340   3022.3601250
    1710.000   -6259.0111185   5438.0653788   1772.0723146   3040.0806793
    1720.000   -6313.4434869   5448.3982885   1772.1056069   3057.8015693
    1730.000   -6367.9788852   5458.6714883   1772.1383245   3075.5227895
    1740.000   -6422.6167199   5468.8856631   1772.1704805   3093.2443340
    1750.000   -6477.3564040   5479.0414864   1772.2020878   3110.9661973
    1760.000   -6532.1973573   5489.1396200   1772.2331587   3128.6883739
    1770.000   -6587.1390063   5499.1807147   1772.2637053   3146.4108587
    1780.000   -6642.1807836   5509.1654101   1772.2937393   3164.1336463
    1790.000   -6697.3221286   5519.0943354   1772.3232722   3181.8567318
    1800.000   -6752.5624865   5528.9681092   1772.3523149   3199.5801101
    1810.000   -6807.9013090   5538.7873400   1772.3808784   3217.3037765
    1820.000   -6863.3380535   5548.5526262   1772.4089730   3235.0277261
    1830.000   -6918.8721836   5558.2645563   1772.4366090   3252.7519544
    1840.000   -6974.5031687   5567.9237095   1772.4637963   3270.4764568
    1850.000   -7030.2304838   5577.5306555   1772.4905446   3288.2012289
    1860.000   -7086.0536097   5587.0859548   1772.5168632   3305.9262663
    1870.000   -7141.9720326   5596.5901590   1772.5427613   3323.6515648
    1880.000   -7197.9852443   5606.0438109   1772.5682478   3341.3771201
    1890.000   -7254.0927421   5615.4474447   1772.5933314   3359.1029284
    1900.000   -7310.2940282   5624.8015862   1772.6180206   3376.8289855
    1910.000   -7366.5886105   5634.1067529   1772.6423235   3394.5552875
    1920.000   -7422.9760018   5643.3634544   1772.6662481   3412.2818307
    1930.000   -7479.4557197   5652.5721922   1772.6898024   3430.0086112
    1940.000   -7536.0272874   5661.7334602   1772.7129938   3447.7356255
    1950.000   -7592.6902323   5670.8477447   1772.7358298   3465.4628699
    1960.000   -7649.4440872   5679.9155246   1772.7583176   3483.1903409
    1970.000   -7706.2883894   5688.9372713   1772.7804643   3500.9180351
    1980.000   -7763.2226808   5697.9134494   1772.8022767   3518.6459491
    1990.000   -7820.2465080   5706.8445164   1772.8237615   3536.3740796
    2000.000   -7877.3594222   5715.7309228   1772.8449253   3554.1024233