#      T [K]      F [kJ/mol]    S [J/K/mol]  C_v [J/K/mol]     E [kJ/mol]
       0.000     277.8871854      0.0000000      0.0000000    277.8871854
      10.000     277.8685593      5.7027243     12.3574096    277.9255865
      20.000     277.7158764     28.7246260     71.6587839    278.2903689
      30.000     277.1920743     82.3255554    219.9580581    279.6618409
      40.000     275.9324632    176.4261348    456.2951419    282.9895086
      50.000     273.5403112    307.2585859    727.8269795    288.9032405
      60.000     269.7027717    463.4757739    989.8072052    297.5113181
      70.000     264.2238247    633.8886936   1221.3021111    308.5960333
      80.000     257.0058151    810.1535188   1417.2451060    321.8180966
      90.000     248.0197962    986.7766669   1579.8883246    336.8296962
     100.000     237.2804329   1160.4015687   1713.9539122    353.3205898
     110.000     224.8282556   1329.1091561   1824.4458972    371.0302628
     120.000     210.7180377   1491.8988761   1915.8306052    389.7459028
     130.000     195.0114779   1648.3398308   1991.8253438    409.2956559
     140.000     177.7727119   1798.3461077   2055.4267383    429.5411670
     150.000     159.0656261   1942.0349800   2109.0163007    450.3708731
     160.000     138.9523036   2079.6383594   2154.4772629    471.6944412
     170.000     117.4921743   2211.4479252   2193.2990193    493.4383216
     180.000      94.7415992   2337.7814247   2226.6630797    515.5422557
     190.000      70.7537206   2458.9622626   2255.5111375    537.9565505
     200.000      45.5784714   2575.3074290   2280.5979822    560.6399572
     210.000      19.2626766   2687.1206560   2302.5322940    583.5580143
     220.000      -8.1497937   2794.6888398   2321.8080196    606.6817511
     230.000     -36.6178472   2898.2804890   2338.8285287    629.9866653
     240.000     -66.1029831   2998.1454104   2353.9252689    653.4519154
     250.000     -96.5691067   3094.5151327   2367.3722361    677.0596765
     260.000    -127.9823505   3187.6037499   2379.3972551    700.7946244
     270.000    -160.3109054   3277.6089835   2390.1908224    724.6435201
     280.000    -193.5248622   3364.7133384   2399.9130787    748.5948726
     290.000    -227.5960655   3449.0852742   2408.6993372    772.6386640
     300.000    -262.4979794   3530.8803454   2416.6644932    796.7661242
     310.000    -298.2055632   3610.2422848   2423.9065610    820.9695451
     320.000    -334.6951588   3687.3040163   2430.5095267    845.2421264
     330.000    -371.9443873   3762.1885898   2436.5456613    869.5778473
     340.000    -409.9320545   3835.0100403   2442.0774065    893.9713592
     350.000    -448.6380646   3905.8741714   2447.1589197    918.4178954
     360.000    -488.0433419   3974.8792681   2451.8373458    942.9131946
     370.000    -528.1297586   4042.1167436   2456.1538697    967.4534366
     380.000    -568.8800691   4107.6717252   2460.1445897    992.0351865
     390.000    -610.2778499   4171.6235858   2463.8412476   1016.6553486
     400.000    -652.3074446   4234.0464238   2467.2718395   1041.3111249
     410.000    -694.9539130   4295.0094984   2470.4611304   1065.9999813
     420.000    -738.2029852   4354.5776235   2473.4310885   1090.7196167
     430.000    -782.0410185   4412.8115252   2476.2012532   1115.4679373
     440.000    -826.4549585   4469.7681650   2478.7890483   1140.2430341
     450.000    -871.4323029   4525.5010343   2481.2100498   1165.0431625
     460.000    -916.9610679   4580.0604211   2483.4782144   1189.8667258
     470.000    -963.0297578   4633.4936533   2485.6060766   1214.7122593
     480.000   -1009.6273361   4685.8453196   2487.6049181   1239.5784174
     490.000   -1056.7431994   4737.1574714   2489.4849144   1264.4639616
     500.000   -1104.3671530   4787.4698065   2491.2552619   1289.3677502
     510.000   -1152.4893881   4836.8198377   2492.9242882   1314.2887292
     520.000   -1201.1004606   4885.2430463   2494.4995484   1339.2259235
     530.000   -1250.1912718   4932.7730232   2495.9879091   1364.1784305
     540.000   -1299.7530499   4979.4415978   2497.3956223   1389.1454129
     550.000   -1349.7773332   5025.2789571   2498.7283896   1414.1260932
     560.000   -1400.2559540   5070.3137541   2499.9914194   1439.1197483
     570.000   -1451.1810239   5114.5732088   2501.1894768   1464.1257051
     580.000   -1502.5449201   5158.0831999   2502.3269285   1489.1433359
     590.000   -1554.3402719   5200.8683507   2503.4077812   1514.1720550
     600.000   -1606.5599492   5242.9521073   2504.4357171   1539.2113152
     610.000   -1659.1970507   5284.3568114   2505.4141248   1564.2606043
     620.000   -1712.2448931   5325.1037678   2506.3461264   1589.3194430
     630.000   -1765.6970014   5365.2133066   2507.2346027   1614.3873818
     640.000   -1819.5470993   5404.7048408   2508.0822151   1639.4639989
     650.000   -1873.7891001   5443.5969203   2508.8914251   1664.5488981
     660.000   -1928.4170987   5481.9072813   2509.6645119   1689.6417070
     670.000   -1983.4253633   5519.6528930   2510.4035888   1714.7420750
     680.000   -2038.8083283   5556.8500003   2511.1106170   1739.8496719
     690.000   -2094.5605869   5593.5141645   2511.7874188   1764.9641866
     700.000   -2150.6768849   5629.6603002   2512.4356889   1790.0853252
     710.000   -2207.1521139   5665.3027105   2513.0570053   1815.2128105
     720.000   -2263.9813058   5700.4551197   2513.6528386   1840.3463804
     730.000   -2321.1596270   5735.1307039   2514.2245607   1865.4857869
     740.000   -2378.6823727   5769.3421192   2514.7734524   1890.6307955
     750.000   -2436.5449627   5803.1015288   2515.3007110   1915.7811839
     760.000   -2494.7429357   5836.4206277   2515.8074564   1940.9367414
     770.000   -2553.2719451   5869.3106665   2516.2947369   1966.0972681
     780.000   -2612.1277549   5901.7824736   2516.7635352   1991.2625745
     790.000   -2671.3062353   5933.8464754   2517.2147724   2016.4324803
     800.000   -2730.8033586   5965.5127161   2517.6493135   2041.6068143
     810.000   -2790.6151960   5996.7908761   2518.0679705   2066.7854136
     820.000   -2850.7379137   6027.6902890   2518.4715072   2091.9681233
     830.000   -2911.1677694   6058.2199580   2518.8606417   2117.1547958
     840.000   -2971.9011093   6088.3885711   2519.2360502   2142.3452904
     850.000   -3032.9343653   6118.2045158   2519.5983699   2167.5394731
     860.000   -3094.2640511   6147.6758922   2519.9482012   2192.7372162
     870.000   -3155.8867607   6176.8105265   2520.2861107   2217.9383974
     880.000   -3217.7991644   6205.6159828   2520.6126333   2243.1429004
     890.000   -3279.9980075   6234.0995745   2520.9282741   2268.3506138
     900.000   -3342.4801066   6262.2683754   2521.2335108   2293.5614312
     910.000   -3405.2423485   6290.1292301   2521.5287949   2318.7752509
     920.000   -3468.2816869   6317.6887633   2521.8145540   2343.9919754
     930.000   -3531.5951408   6344.9533896   2522.0911928   2369.2115116
     940.000   -3595.1797924   6371.9293218   2522.3590948   2394.4337701
     950.000   -3659.0327850   6398.6225795   2522.6186237   2419.6586655
     960.000   -3723.1513212   6425.0389969   2522.8701243   2444.8861158
     970.000   -3787.5326610   6451.1842303   2523.1139241   2470.1160424
     980.000   -3852.1741201   6477.0637651   2523.3503339   2495.3483697
     990.000   -3917.0730684   6502.6829230   2523.5796489   2520.5830254
    1000.000   -3982.2269279   6528.0468679   2523.8021501   2545.8199400
    1010.000   -4047.6331718   6553.1606122   2524.0181043   2571.0590466
    1020.000   -4113.2893224   6578.0290230   2524.2277657   2596.3002811
    1030.000   -4179.1929502   6602.6568271   2524.4313761   2621.5435817
    1040.000   -4245.3416722   6627.0486167   2524.6291660   2646.7888892
    1050.000   -4311.7331507   6651.2088544   2524.8213548   2672.0361464
    1060.000   -4378.3650919   6675.1418776   2525.0081519   2697.2852983
    1070.000   -4445.2352450   6698.8519038   2525.1897568   2722.5362921
    1080.000   -4512.3414004   6722.3430344   2525.3663602   2747.7890768
    1090.000   -4579.6813893   6745.6192592   2525.5381436   2773.0436032
    1100.000   -4647.2530822   6768.6844603   2525.7052809   2798.2998242
    1110.000   -4715.0543877   6791.5424159   2525.8679380   2823.5576939
    1120.000   -4783.0832519   6814.1968040   2526.0262733   2848.8171685
    1130.000   -4851.3376572   6836.6512059   2526.1804385   2874.0782055
    1140.000   -4919.8156211   6858.9091096   2526.3305786   2899.3407639
    1150.000   -4988.5151957   6880.9739129   2526.4768325   2924.6048041
    1160.000   -5057.4344667   6902.8489265   2526.6193330   2949.8702880
    1170.000   -5126.5715524   6924.5373770   2526.7582074   2975.1371787
    1180.000   -5195.9246029   6946.0424096   2526.8935775   3000.4054405
    1190.000   -5265.4917994   6967.3670910   2527.0255601   3025.6750389
    1200.000   -5335.2713535   6988.5144119   2527.1542673   3050.9459408
    1210.000   -5405.2615062   7009.4872892   2527.2798065   3076.2181137
    1220.000   -5475.4605273   7030.2885688   2527.4022807   3101.4915267
    1230.000   -5545.8667148   7050.9210279   2527.5217888   3126.7661495
    1240.000   -5616.4783941   7071.3873766   2527.6384257   3152.0419529
    1250.000   -5687.2939175   7091.6902609   2527.7522827   3177.3189087
    1260.000   -5758.3116631   7111.8322640   2527.8634473   3202.5969896
    1270.000   -5829.5300349   7131.8159085   2527.9720036   3227.8761690
    1280.000   -5900.9474616   7151.6436585   2528.0780327   3253.1564212
    1290.000   -5972.5623964   7171.3179208   2528.1816122   3278.4377214
    1300.000   -6044.3733163   7190.8410475   2528.2828170   3303.7200455
    1310.000   -6116.3787213   7210.2153369   2528.3817191   3329.0033701
    1320.000   -6188.5771344   7229.4430355   2528.4783878   3354.2876725
    1330.000   -6260.9671007   7248.5263393   2528.5728898   3379.5729306
    1340.000   -6333.5471870   7267.4673957   2528.6652893   3404.8591233
    1350.000   -6406.3159814   7286.2683045   2528.7556482   3430.1462296
    1360.000   -6479.2720928   7304.9311194   2528.8440261   3455.4342296
    1370.000   -6552.4141502   7323.4578496   2528.9304804   3480.7231037
    1380.000   -6625.7408027   7341.8504607   2529.0150666   3506.0128330
    1390.000   -6699.2507188   7360.1108761   2529.0978380   3531.3033990
    1400.000   -6772.9425859   7378.2409784   2529.1788462   3556.5947839
    1410.000   -6846.8151101   7396.2426102   2529.2581409   3581.8869702
    1420.000   -6920.8670159   7414.1175754   2529.3357699   3607.1799412
    1430.000   -6995.0970453   7431.8676402   2529.4117797   3632.4736802
    1440.000   -7069.5039581   7449.4945344   2529.4862149   3657.7681715
    1450.000   -7144.0865311   7466.9999521   2529.5591188   3683.0633994
    1460.000   -7218.8435578   7484.3855525   2529.6305328   3708.3593489
    1470.000   -7293.7738481   7501.6529615   2529.7004975   3733.6560053
    1480.000   -7368.8762283   7518.8037719   2529.7690517   3758.9533542
    1490.000   -7444.1495401   7535.8395449   2529.8362331   3784.2513817
    1500.000   -7519.5926409   7552.7618102   2529.9020780   3809.5500744
    1510.000   -7595.2044030   7569.5720675   2529.9666217   3834.8494189
    1520.000   -7670.9837138   7586.2717871   2530.0298982   3860.1494026
    1530.000   -7746.9294751   7602.8624104   2530.0919404   3885.4500128
    1540.000   -7823.0406030   7619.3453509   2530.1527802   3910.7512374
    1550.000   -7899.3160278   7635.7219950   2530.2124485   3936.0530645
    1560.000   -7975.7546931   7651.9937024   2530.2709752   3961.3554825
    1570.000   -8052.3555565   7668.1618069   2530.3283891   3986.6584803
    1580.000   -8129.1175883   7684.2276171   2530.3847184   4011.9620467
    1590.000   -8206.0397721   7700.1924171   2530.4399900   4037.2661711
    1600.000   -8283.1211041   7716.0574670   2530.4942304   4062.5708431
    1610.000   -8360.3605931   7731.8240034   2530.5474650   4087.8760524
    1620.000   -8437.7572599   7747.4932401   2530.5997185   4113.1817891
    1630.000   -8515.3101375   7763.0663688   2530.6510149   4138.4880436
    1640.000   -8593.0182708   7778.5445592   2530.7013774   4163.7948063
    1650.000   -8670.8807161   7793.9289601   2530.7508285   4189.1020681
    1660.000   -8748.8965411   7809.2206994   2530.7993901   4214.4098199
    1670.000   -8827.0648249   7824.4208850   2530.8470833   4239.7180530
    1680.000   -8905.3846573   7839.5306048   2530.8939288   4265.0267587
    1690.000   -8983.8551390   7854.5509277   2530.9399465   4290.3359288
    1700.000   -9062.4753813   7869.4829037   2530.9851557   4315.6455550
    1710.000   -9141.2445060   7884.3275645   2531.0295754   4340.9556293
    1720.000   -9220.1616450   7899.0859238   2531.0732237   4366.2661439
    1730.000   -9299.2259402   7913.7589777   2531.1161185   4391.5770912
    1740.000   -9378.4365434   7928.3477053   2531.1582769   4416.8884638
    1750.000   -9457.7926164   7942.8530690   2531.1997158   4442.2002544
    1760.000   -9537.2933301   7957.2760147   2531.2404514   4467.5124558
    1770.000   -9616.9378651   7971.6174724   2531.2804994   4492.8250611
    1780.000   -9696.7254110   7985.8783565   2531.3198754   4518.1380635
    1790.000   -9776.6551666   8000.0595659   2531.3585942   4543.4514564
    1800.000   -9856.7263396   8014.1619850   2531.3966704   4568.7652333
    1810.000   -9936.9381466   8028.1864830   2531.4341181   4594.0793877
    1820.000  -10017.2898124   8042.1339154   2531.4709511   4619.3939136
    1830.000  -10097.7805708   8056.0051233   2531.5071827   4644.7088048
    1840.000  -10178.4096636   8069.8009342   2531.5428260   4670.0240553
    1850.000  -10259.1763409   8083.5221623   2531.5778936   4695.3396594
    1860.000  -10340.0798609   8097.1696087   2531.6123979   4720.6556113
    1870.000  -10421.1194897   8110.7440616   2531.6463508   4745.9719055
    1880.000  -10502.2945014   8124.2462967   2531.6797641   4771.2885365
    1890.000  -10583.6041775   8137.6770775   2531.7126491   4796.6054990
    1900.000  -10665.0478073   8151.0371553   2531.7450168   4821.9227878
    1910.000  -10746.6246874   8164.3272696   2531.7768781   4847.2403976
    1920.000  -10828.3341219   8177.5481487   2531.8082435   4872.5583237
    1930.000  -10910.1754220   8190.7005093   2531.8391232   4897.8765609
    1940.000  -10992.1479060   8203.7850570   2531.8695272   4923.1951045
    1950.000  -11074.2508994   8216.8024868   2531.8994652   4948.5139499
    1960.000  -11156.4837343   8229.7534830   2531.9289467   4973.8330923
    1970.000  -11238.8457498   8242.6387194   2531.9579809   4999.1525273
    1980.000  -11321.3362917   8255.4588597   2531.9865768   5024.4722505
    1990.000  -11403.9547122   8268.2145576   2532.0147431   5049.7922574
    2000.000  -11486.7003702   8280.9064571   2532.0424885   5075.1125439